{
  "resourceType": "Bundle",
  "id": "PASTest-SR-Bundle-01",
  "meta": {
    "profile": [
      "http://hl7.org/fhir/us/davinci-pas/StructureDefinition/profile-pas-request-bundle"
    ]
  },
  "identifier": {
    "system": "http://example.org/SUBMITTER_TRANSACTION_IDENTIFIER",
    "value": "PASTest-01"
  },
  "type": "collection",
  "timestamp": "2023-10-12T11:02:00+05:00",
  "entry": [
    {
      "fullUrl": "http://example.org/fhir/Claim/PASTest-SR-Claim-01",
      "resource": {
        "resourceType": "Claim",
        "id": "PASTest-SR-Claim-01",
        "meta": {
          "profile": [
            "http://hl7.org/fhir/us/davinci-pas/StructureDefinition/profile-claim"
          ]
        },
        "extension": [
          {
            "url": "http://hl7.org/fhir/us/davinci-pas/StructureDefinition/extension-levelOfServiceCode",
            "valueCodeableConcept": {
              "coding": [
                {
                  "system": "http://codesystem.x12.org/005010/1338",
                  "code": "U",
                  "display": "Urgent"
                }
              ]
            }
          }
        ],
        "identifier": [{
          "extension": [
            {
              "url": "http://hl7.org/fhir/us/davinci-pas/StructureDefinition/extension-identifierJurisdiction",
              "valueCodeableConcept": {
                "coding": [
                  {
                    "system": "https://www.usps.com/",
                    "code": "MA"
                  }
                ]
              }
            },
            {
              "url": "http://hl7.org/fhir/us/davinci-pas/StructureDefinition/extension-identifierSubDepartment",
              "valueString": "223412"
            }
          ],
          "use": "official",
          "system": "http://example.org/PATIENT_EVENT_TRACE_NUMBER",
          "value": "PASTestId-01",
          "assigner": {
            "identifier": {
              "system": "http://example.org/USER_ASSIGNED",
              "value": "9012345678"
            }
          }
        }],
        "status": "active",
        "type": {
          "coding": [
            {
              "system": "http://terminology.hl7.org/CodeSystem/claim-type",
              "code": "professional"
            }
          ]
        },
        "use": "preauthorization",
        "patient": {
          "reference": "Patient/PASPatient01"
        },
        "billablePeriod": {
          "start": "2023-10-01",
          "end": "2023-10-02"
        },
        "created": "2023-10-02T11:01:00+05:00",
        "insurer": {
          "reference": "Organization/InsurerExample"
        },
        "provider": {
          "reference": "Organization/UMOExample"
        },
        "priority": {
          "coding": [
            {
              "system": "http://terminology.hl7.org/CodeSystem/processpriority",
              "code": "normal"
            }
          ]
        },
        "careTeam": [
          {
            "extension": [
              {
                "url": "http://hl7.org/fhir/us/davinci-pas/StructureDefinition/extension-careTeamClaimScope",
                "valueBoolean": true
              }
            ],
            "sequence": 1,
            "provider": {
              "reference": "PractitionerRole/ReferralPractitionerRoleExample"
            }
          }
        ],
        "supportingInfo": [
          {
            "sequence": 1,
            "category": {
              "coding": [
                {
                  "system": "http://hl7.org/fhir/us/davinci-pas/CodeSystem/PASTempCodes",
                  "code": "patientEvent"
                }
              ]
            },
            "timingPeriod": {
              "start": "2023-10-01",
              "end": "2023-10-02"
            }
          },
          {
            "sequence": 2,
            "category": {
              "coding": [
                {
                  "system": "http://hl7.org/fhir/us/davinci-pas/CodeSystem/PASTempCodes",
                  "code": "institutionalEncounter"
                }
              ]
            },
            "valueReference": {
              "reference": "Encounter/PASEncounter01"
            }
          }
        ],
        "diagnosis": [
          {
            "extension": [
              {
                "url": "http://hl7.org/fhir/us/davinci-pas/StructureDefinition/extension-diagnosisRecordedDate",
                "valueDate": "2023-10-01"
              }
            ],
            "sequence": 1,
            "diagnosisCodeableConcept": {
              "coding": [
                {
                  "system": "http://hl7.org/fhir/sid/icd-10-cm",
                  "code": "G89.4"
                }
              ]
            }
          }
        ],
        "insurance": [
          {
            "sequence": 1,
            "focal": true,
            "coverage": {
              "reference": "Coverage/InsuranceExample"
            }
          }
        ],
        "item": [
          {
            "extension": [
              {
                "url": "http://hl7.org/fhir/us/davinci-pas/StructureDefinition/extension-itemTraceNumber",
                "valueIdentifier": {
                  "system": "http://example.org/ITEM_TRACE_NUMBER",
                  "value": "1122334"
                }
              },
              {
                "url": "http://hl7.org/fhir/us/davinci-pas/StructureDefinition/extension-authorizationNumber",
                "valueString": "1122445"
              },
              {
                "url": "http://hl7.org/fhir/us/davinci-pas/StructureDefinition/extension-administrationReferenceNumber",
                "valueString": "9988311"
              },
              {
                "url": "http://hl7.org/fhir/us/davinci-pas/StructureDefinition/extension-serviceItemRequestType",
                "valueCodeableConcept": {
                  "coding": [
                    {
                      "system": "http://codesystem.x12.org/005010/1525",
                      "code": "SC",
                      "display": "Specialty Care Review"
                    }
                  ]
                }
              },
              {
                "url": "http://hl7.org/fhir/us/davinci-pas/StructureDefinition/extension-certificationType",
                "valueCodeableConcept": {
                  "coding": [
                    {
                      "system": "http://codesystem.x12.org/005010/1322",
                      "code": "I",
                      "display": "Initial"
                    }
                  ]
                }
              },
              {
                "url": "http://hl7.org/fhir/us/davinci-pas/StructureDefinition/extension-requestedService",
                "valueReference": {
                  "reference": "ServiceRequest/PAServiceRequest01"
                }
              },
              {
                "url": "http://hl7.org/fhir/us/davinci-pas/StructureDefinition/extension-epsdtIndicator",
                "valueBoolean": false
              },
              {
                "url": "http://hl7.org/fhir/us/davinci-pas/StructureDefinition/extension-nursingHomeResidentialStatus",
                "valueCodeableConcept": {
                  "coding": [
                    {
                      "system": "http://codesystem.x12.org/005010/1345",
                      "code": "2",
                      "display": "Newly Admitted"
                    }
                  ]
                }
              },
              {
                "url": "http://hl7.org/fhir/us/davinci-pas/StructureDefinition/extension-nursingHomeLevelOfCare",
                "valueCodeableConcept": {
                  "coding": [
                    {
                      "system": "http://codesystem.x12.org/005010/1337",
                      "code": "2",
                      "display": "Intermediate Care Facility (ICF)"
                    }
                  ]
                }
              },
              {
                "url": "http://hl7.org/fhir/us/davinci-pas/StructureDefinition/extension-revenueUnitRateLimit",
                "valueDecimal": 100
              }
            ],
            "sequence": 1,
            "careTeamSequence": [
              1
            ],
            "diagnosisSequence": [
              1
            ],
            "informationSequence": [
              1,
              2
            ],
            "category": {
              "coding": [
                {
                  "system": "https://codesystem.x12.org/005010/1365",
                  "code": "1",
                  "display": "Medical Care"
                }
              ]
            },
            "productOrService": {
              "coding": [
                {
                  "system": "http://www.cms.gov/Medicare/Coding/HCPCSReleaseCodeSets",
                  "code": "G0299",
                  "display": "Direct Skilled Nursing Services of a Registered Nurse (Rn) in the Home Health or Hospice Setting, each 15 minutes"
                }
              ]
            },
            "locationCodeableConcept": {
              "coding": [
                {
                  "system": "https://www.cms.gov/Medicare/Coding/place-of-service-codes/Place_of_Service_Code_Set",
                  "code": "11"
                }
              ]
            }
          }
        ]
      }
    },
    {
      "fullUrl": "http://example.org/fhir/Organization/UMOExample",
      "resource": {
        "resourceType": "Organization",
        "id": "UMOExample",
        "meta": {
          "profile": [
            "http://hl7.org/fhir/us/davinci-pas/StructureDefinition/profile-requestor",
            "http://hl7.org/fhir/us/davinci-crd/StructureDefinition/profile-organization"
          ]
        },
        "identifier": [
          {
            "use": "official",
            "type": {
              "coding": [
                {
                  "system": "http://terminology.hl7.org/CodeSystem/v2-0203",
                  "code": "NPI"
                }
              ]
            },
            "system": "http://hl7.org/fhir/sid/us-npi",
            "value": "1407071236"
          },
          {
            "system": "http://example.org/fhir/sid/us-tin",
            "value": "121111111"
          }
        ],
        "active": true,
        "type": [
          {
            "coding": [
              {
                "system": "https://codesystem.x12.org/005010/98",
                "code": "X3"
              }
            ]
          }
        ],
        "name": "DR. JOE SMITH CORPORATION",
        "address": [
          {
            "line": [
              "111 1ST STREET"
            ],
            "city": "SAN DIEGO",
            "state": "CA",
            "postalCode": "92101",
            "country": "US"
          }
        ]
      }
    },
    {
      "fullUrl": "http://example.org/fhir/Organization/InsurerExample",
      "resource": {
        "resourceType": "Organization",
        "id": "InsurerExample",
        "meta": {
          "profile": [
            "http://hl7.org/fhir/us/davinci-pas/StructureDefinition/profile-insurer",
            "http://hl7.org/fhir/us/davinci-pas/StructureDefinition/profile-insurer",
            "http://hl7.org/fhir/us/davinci-crd/StructureDefinition/profile-organization"
          ]
        },
        "identifier": [
          {
            "system": "http://hl7.org/fhir/sid/us-npi",
            "value": "789312"
          }
        ],
        "active": true,
        "type": [
          {
            "coding": [
              {
                "system": "https://codesystem.x12.org/005010/98",
                "code": "PR"
              }
            ]
          }
        ],
        "name": "MARYLAND CAPITAL INSURANCE COMPANY"
      }
    },
    {
      "fullUrl": "http://example.org/fhir/Coverage/InsuranceExample",
      "resource": {
        "resourceType": "Coverage",
        "id": "InsuranceExample",
        "meta": {
          "profile": [
            "http://hl7.org/fhir/us/davinci-pas/StructureDefinition/profile-coverage"
          ]
        },
        "status": "active",
        "beneficiary": {
          "reference": "Patient/PASPatient01"
        },
        "payor": [
          {
            "reference": "Organization/InsurerExample"
          }
        ]
      }
    },
    {
      "fullUrl": "http://example.org/fhir/Patient/PASPatient01",
      "resource": {
        "resourceType": "Patient",
        "id": "PASPatient01",
        "meta": {
          "profile": [
            "http://hl7.org/fhir/us/davinci-pas/StructureDefinition/profile-subscriber",
            "http://hl7.org/fhir/us/davinci-crd/StructureDefinition/profile-patient"
          ]
        },
        "extension": [
          {
            "url": "http://hl7.org/fhir/us/davinci-pas/StructureDefinition/extension-militaryStatus",
            "valueCodeableConcept": {
              "coding": [
                {
                  "system": "https://codesystem.x12.org/005010/584",
                  "code": "RU"
                }
              ]
            }
          }
        ],
        "identifier": [
          {
            "use": "official",
            "type": {
              "coding": [
                {
                  "system": "http://terminology.hl7.org/CodeSystem/v2-0203",
                  "code": "MR",
                  "display": "Medical Record Number"
                }
              ]
            },
            "system": "http://alltimecentralhospital.com",
            "value": "ATCH0001"
          },
          {
            "system": "http://example.org/MIN",
            "value": "12345678901"
          }
        ],
        "active": true,
        "name": [
          {
            "use": "official",
            "family": "SMITH",
            "given": [
              "JOE"
            ]
          }
        ],
        "telecom": [
          {
            "system": "phone",
            "value": "801-101-0001"
          },
          {
            "system": "email",
            "value": "Jplange@email.com"
          }
        ],
        "gender": "male",
        "birthDate": "1993-02-01",
        "address": [
          {
            "use": "home",
            "type": "physical",
            "line": [
              "2465 S. State St."
            ],
            "city": "Salt Lake City",
            "state": "UT",
            "postalCode": "84115",
            "country": "US"
          }
        ]
      }
    },
    {
      "fullUrl": "http://example.org/fhir/Practitioner/ReferralPractitionerExample",
      "resource": {
        "resourceType": "Practitioner",
        "id": "ReferralPractitionerExample",
        "meta": {
          "profile": [
            "http://hl7.org/fhir/us/davinci-pas/StructureDefinition/profile-practitioner"
          ]
        },
        "identifier": [
          {
            "system": "http://hl7.org/fhir/sid/us-npi",
            "value": "987654321"
          }
        ],
        "name": [
          {
            "family": "WATSON",
            "given": [
              "SUSAN"
            ]
          }
        ],
        "telecom": [
          {
            "system": "phone",
            "value": "4029993456"
          }
        ]
      }
    },
    {
      "fullUrl": "http://example.org/fhir/PractitionerRole/ReferralPractitionerRoleExample",
      "resource": {
        "resourceType": "PractitionerRole",
        "id": "ReferralPractitionerRoleExample",
        "meta": {
          "profile": [
            "http://hl7.org/fhir/us/davinci-pas/StructureDefinition/profile-practitionerrole",
            "http://hl7.org/fhir/us/davinci-pas/StructureDefinition/profile-practitionerrole|1.2.0",
            "http://hl7.org/fhir/us/core/StructureDefinition/us-core-practitionerrole"
          ]
        },
        "active": true,
        "practitioner": {
          "reference": "Practitioner/ReferralPractitionerExample"
        },
        "organization": {
          "reference": "Organization/UMOExample"
        },
        "code": [
          {
            "coding": [
              {
                "system": "http://terminology.hl7.org/CodeSystem/v3-ParticipationFunction",
                "code": "PCP",
                "display": "primary care physician"
              },
              {
                "system": "http://nucc.org/provider-taxonomy",
                "code": "261QP2300X",
                "display": "Primary Care Clinic/Center"
              }
            ]
          }
        ],
        "specialty": [
          {
            "coding": [
              {
                "system": "http://nucc.org/provider-taxonomy",
                "code": "207Q00000X",
                "display": "Family Medicine Physician"
              }
            ]
          }
        ],
        "telecom": [
          {
            "system": "phone",
            "value": "801-521-0130"
          },
          {
            "system": "fax",
            "value": "801-521-0030"
          }
        ]
      }
    },
    {
      "fullUrl": "http://example.org/fhir/ServiceRequest/PAServiceRequest01",
      "resource": {
        "resourceType": "ServiceRequest",
        "id": "PAServiceRequest01",
        "meta": {
          "profile": [
            "http://hl7.org/fhir/us/davinci-pas/StructureDefinition/profile-servicerequest",
            "http://hl7.org/fhir/us/davinci-pas/StructureDefinition/profile-servicerequest|1.2.0"
          ]
        },
        "status": "active",
        "intent": "order",
        "code": {
          "coding": [
            {
              "system": "https://codesystem.x12.org/005010/1365",
              "code": "3",
              "display": "Consultation"
            }
          ]
        },
        "quantityQuantity": {
          "value": 1,
          "system": "http://unitsofmeasure.org",
          "code": "{visit}"
        },
        "subject": {
          "reference": "Patient/PASPatient01"
        }
      }
    },
    {
      "fullUrl": "http://example.org/fhir/Encounter/PASEncounter01",
      "resource": {
        "resourceType": "Encounter",
        "id": "PASEncounter01",
        "meta": {
          "profile": [
            "http://hl7.org/fhir/us/davinci-pas/StructureDefinition/profile-encounter"
          ]
        },
        "extension": [
          {
            "url": "http://hl7.org/fhir/us/davinci-pas/StructureDefinition/extension-patientStatus",
            "valueCodeableConcept": {
              "coding": [
                {
                  "system": "https://www.nubc.org/CodeSystem/PatDischargeStatus",
                  "code": "30",
                  "display": "Still a patient"
                }
              ]
            }
          }
        ],
        "status": "planned",
        "class": {
          "system": "http://terminology.hl7.org/CodeSystem/v3-ActCode",
          "code": "AMB"
        },
        "type": [
          {
            "coding": [
              {
                "system": "https://www.nubc.org/CodeSystem/PriorityTypeOfAdmitOrVisit",
                "code": "2"
              }
            ]
          }
        ],
        "subject": {
          "reference": "Patient/PASPatient01"
        },
        "hospitalization": {
          "admitSource": {
            "coding": [
              {
                "system": "https://www.nubc.org/CodeSystem/PointOfOrigin",
                "code": "5"
              }
            ]
          }
        }
      }
    }
  ]
}